Folder: castorplot-desktop/testes_pessoal/FTIR

Note: README.md
# castorplot-desktop
Simples aplicativo executavel para analize e manipulação de dados, dos equipamentos utilizados pelos alunos da Ilum.

File: rGO.txt
RGO_X,RGO_Y
399.452,47.6074
412.384,48.3248
425.316,49.1598
438.248,48.8831
451.18,48.3537
464.112,49.0475
477.044,48.688
489.976,49.0894
502.908,49.5699
515.839,49.2524
528.771,50.1095
541.703,50.1189
554.635,50.2604
567.567,50.4561
580.499,50.6069
593.431,50.8098
606.363,51.3997
619.295,51.6798
632.227,51.9959
645.159,52.2809
658.09,52.494
671.022,52.8128
683.954,53.1173
696.886,53.5091
709.818,53.8194
722.75,54.1676
735.682,54.3887
748.614,54.4449
761.546,54.3323
774.478,54.6013
787.409,55.5219
800.341,55.9028
813.273,56.0834
826.205,56.5013
839.137,56.7334
852.069,56.5878
865.001,56.175
877.933,55.9417
890.865,56.0228
903.797,55.4459
916.729,54.8889
929.66,54.3092
942.592,53.9049
955.524,53.5736
968.456,52.7905
981.388,52.3333
994.32,51.9226
1007.25,51.5247
1020.18,51.1285
1033.12,51.3374
1046.05,52.2082
1058.98,53.1201
1071.91,54.0263
1084.84,54.7161
1097.78,55.3313
1110.71,55.7678
1123.64,56.4749
1136.57,57.4162
1149.5,58.2878
1162.43,58.8167
1175.37,59.0034
1188.3,58.8704
1201.23,59.0527
1214.16,59.5682
1227.09,60.4245
1240.03,61.4664
1252.96,62.3264
1265.89,62.8041
1278.82,63.1142
1291.75,63.3961
1304.69,63.3546
1317.62,62.7924
1330.55,64.054
1343.48,64.4026
1356.41,64.6558
1369.35,65.0389
1382.28,65.1737
1395.21,65.1105
1408.14,65.4929
1421.07,66.1084
1434,66.0496
1446.94,66.6559
1459.87,67.6827
1472.8,68.581
1485.73,69.5881
1498.66,69.7595
1511.6,69.0665
1524.53,68.4536
1537.46,67.1537
1550.39,66.3086
1563.32,64.8639
1576.26,64.3371
1589.19,63.946
1602.12,63.3354
1615.05,62.1206
1627.98,62.8163
1640.92,63.6386
1653.85,65.7837
1666.78,64.6982
1679.71,64.6348
1692.64,64.5054
1705.57,64.1861
1718.51,64.9654
1731.44,65.0692
1744.37,66.2983
1757.3,67.6771
1770.23,68.7817
1783.17,70.9502
1796.1,73.7199
1809.03,76.5835
1821.96,77.514
1834.89,77.5894
1847.83,77.4671
1860.76,77.3114
1873.69,77.089
1886.62,77.0542
1899.55,76.8842
1912.49,76.9041
1925.42,77.01
1938.35,76.8261
1951.28,76.9348
1964.21,77.3688
1977.15,77.3881
1990.08,77.2073
2003.01,77.0319
2015.94,76.9278
2028.87,77.2026
2041.8,76.7632
2054.74,76.8088
2067.67,76.6452
2080.6,76.4412
2093.53,76.5746
2106.46,76.7333
2119.4,76.6016
2132.33,76.817
2145.26,77.1088
2158.19,77.7877
2171.12,77.3187
2184.06,76.823
2196.99,76.8521
2209.92,76.8652
2222.85,76.6897
2235.78,76.5759
2248.72,76.4857
2261.65,76.5573
2274.58,76.5672
2287.51,76.3303
2300.44,75.8336
2313.37,75.2184
2326.31,74.2038
2339.24,74.5673
2352.17,74.1323
2365.1,75.2054
2378.03,75.667
2390.97,76.0652
2403.9,75.9565
2416.83,75.9534
2429.76,76.012
2442.69,75.9192
2455.63,75.8622
2468.56,75.825
2481.49,75.7445
2494.42,75.7508
2507.35,75.7277
2520.29,75.6502
2533.22,75.6397
2546.15,75.6307
2559.08,75.5816
2572.01,75.589
2584.94,75.5059
2597.88,75.477
2610.81,75.4479
2623.74,75.4388
2636.67,75.4587
2649.6,75.4741
2662.54,75.4903
2675.47,75.5016
2688.4,75.5304
2701.33,75.5385
2714.26,75.5081
2727.2,75.4964
2740.13,75.4238
2753.06,75.3635
2765.99,75.2714
2778.92,75.1821
2791.86,75.0884
2804.79,74.9542
2817.72,74.8412
2830.65,74.6901
2843.58,74.3305
2856.51,74.0822
2869.45,74.0843
2882.38,73.9063
2895.31,73.6356
2908.24,73.4635
2921.17,73.1484
2934.11,73.3628
2947.04,73.5547
2959.97,73.6481
2972.9,73.9137
2985.83,74.09
2998.77,74.1193
3011.7,74.0707
3024.63,74.0133
3037.56,73.855
3050.49,73.6904
3063.43,73.4553
3076.36,73.2256
3089.29,73.0401
3102.22,72.7799
3115.15,72.5359
3128.08,72.3462
3141.02,72.1646
3153.95,71.9985
3166.88,71.817
3179.81,71.6743
3192.74,71.516
3205.68,71.394
3218.61,71.2152
3231.54,71.1647
3244.47,71.1077
3257.4,71.0863
3270.34,71.0844
3283.27,71.0652
3296.2,71.0718
3309.13,71.0951
3322.06,71.0484
3335,70.9758
3347.93,71.0962
3360.86,71.0981
3373.79,71.254
3386.72,71.4262
3399.65,71.7004
3412.59,72.0514
3425.52,72.482
3438.45,72.8844
3451.38,73.3579
3464.31,73.8273
3477.25,74.3203
3490.18,74.8164
3503.11,75.1319
3516.04,76.1089
3528.97,76.5042
3541.91,77.3685
3554.84,78.08
3567.77,78.4795
3580.7,79.4555
3593.63,79.7076
3606.57,80.2769
3619.5,81.2032
3632.43,82.2765
3645.36,82.5162
3658.29,83.6537
3671.22,84.1598
3684.16,84.0679
3697.09,83.911
3710.02,83.5252
3722.95,83.5596
3735.88,83.0042
3748.82,83.4962
3761.75,84.4992
3774.68,84.006
3787.61,83.9391
3800.54,83.4304
3813.48,84.082
3826.41,83.8057
3839.34,83.9241
3852.27,82.9928
3865.2,83.7625
3878.14,83.7941
3891.07,83.5786
3904,83.7828
3916.93,83.8328
3929.86,83.781
3942.79,83.7781
3955.73,84.0048
3968.66,84.0635
3981.59,84.1095
3994.52,84.0897
4000.27,84.1487