Folder: castorplot-desktop/testes_pessoal/Raman

Note: testes_pessoal/Raman/GO.txt
3495.35	1915.21
3494.08	2097.05
3492.81	2237.79
3491.53	2366.53
3490.26	2477
3488.99	2527.05
3487.71	2606.05
3486.44	2649.37
3485.17	2706.05
3483.89	2732.58
3482.62	2798.58
3481.34	2816.32
3480.06	2884.21
3478.79	2898.21
3477.51	2968.95
3476.24	2970.16
3474.96	3017.21
3473.68	3088.11
3472.4	3149.53
3471.13	3204.58
3469.85	3265.05
3468.57	3353.63
3467.29	3380.37
3466.01	3473.47
3464.73	3545.58
3463.45	3614.47
3462.17	3676
3460.89	3748.16
3459.61	3812
3458.33	3873
3457.04	3968.42
3455.76	3988.05
3454.48	4101.74
3453.2	4128.95
3451.91	4206.32
3450.63	4298.42
3449.35	4310.53
3448.06	4380.26
3446.78	4426.9
3445.49	4481.47
3444.21	4563.05
3442.92	4592.9
3441.64	4647.47
3440.35	4688.26
3439.07	4695.74
3437.78	4721.21
3436.49	4749.84
3435.2	4856.37
3433.92	4863.26
3432.63	4928.11
3431.34	4939.05
3430.05	4969.42
3428.76	5035.58
3427.47	5094.26
3426.18	5119.32
3424.89	5168
3423.6	5204
3422.31	5216.26
3421.02	5256.79
3419.73	5325.11
3418.44	5358.89
3417.14	5443.63
3415.85	5439.26
3414.56	5495.05
3413.27	5561.37
3411.97	5614.89
3410.68	5645.05
3409.39	5717.95
3408.09	5779.89
3406.8	5829.84
3405.5	5869.74
3404.2	5934.47
3402.91	5988.74
3401.61	6080.11
3400.32	6118.47
3399.02	6137.89
3397.72	6236.31
3396.42	6279.84
3395.13	6291.63
3393.83	6300.21
3392.53	6404.47
3391.23	6443.32
3389.93	6491.21
3388.63	6519.74
3387.33	6571.16
3386.03	6603.58
3384.73	6626.53
3383.43	6671.47
3382.13	6705.05
3380.83	6744.05
3379.53	6750.21
3378.22	6796.32
3376.92	6822.68
3375.62	6827.95
3374.32	6868.21
3373.01	6917.05
3371.71	6960.16
3370.4	6968.9
3369.1	6985.05
3367.79	6985.05
3366.49	7029.47
3365.18	7070.58
3363.88	7118.68
3362.57	7124.32
3361.26	7160.1
3359.96	7218.47
3358.65	7255.63
3357.34	7303.47
3356.03	7353.16
3354.73	7420.53
3353.42	7460.53
3352.11	7554.53
3350.8	7593.68
3349.49	7633.47
3348.18	7660.26
3346.87	7727.42
3345.56	7814.37
3344.25	7839.26
3342.93	7922.47
3341.62	7963.95
3340.31	7994.79
3339	8051.47
3337.69	8119.26
3336.37	8132.84
3335.06	8237.11
3333.74	8256.53
3332.43	8316.74
3331.12	8348.26
3329.8	8381.79
3328.49	8464.32
3327.17	8483.53
3325.86	8526.84
3324.54	8531.32
3323.22	8572.79
3321.91	8603.74
3320.59	8578.05
3319.27	8601.63
3317.95	8606.21
3316.63	8619.74
3315.32	8579.16
3314	8635.26
3312.68	8688.42
3311.36	8669.89
3310.04	8724.05
3308.72	8773.05
3307.4	8780.42
3306.08	8870.68
3304.75	8887.79
3303.43	9020.58
3302.11	9071
3300.79	9182.42
3299.47	9329.63
3298.14	9450.21
3296.82	9608.79
3295.5	9799.79
3294.17	9937.84
3292.85	10147.5
3291.52	10410.5
3290.2	10668.6
3288.87	10925.9
3287.55	11250
3286.22	11561.5
3284.89	11903.7
3283.57	12289.9
3282.24	12694.4
3280.91	13137.5
3279.58	13600.8
3278.26	14100
3276.93	14567.8
3275.6	15105.9
3274.27	15651.2
3272.94	16244.8
3271.61	16721.8
3270.28	17180.3
3268.95	17756.7
3267.62	18266.6
3266.29	18788.7
3264.96	19198.2
3263.62	19690.2
3262.29	20108.9
3260.96	20504.7
3259.63	20820.7
3258.29	21165.1
3256.96	21482.4
3255.62	21708.3
3254.29	22078.6
3252.95	22177.9
3251.62	22441.8
3250.28	22566.3
3248.95	22791.5
3247.61	22

Note: testes_pessoal/Raman/PEGGO.txt
3480.13	1171.05
3478.86	1293.89
3477.58	1383.21
3476.3	1467.89
3475.02	1545.47
3473.74	1577.95
3472.46	1673.26
3471.18	1712.79
3469.9	1765.53
3468.62	1785.74
3467.34	1814
3466.06	1881.16
3464.78	1904.32
3463.5	1941.32
3462.22	2017
3460.93	2032.37
3459.65	2079.95
3458.37	2115.74
3457.08	2132.58
3455.8	2187.89
3454.52	2215.68
3453.23	2246.68
3451.95	2273.11
3450.66	2298.74
3449.38	2349.74
3448.09	2368.74
3446.81	2421.16
3445.52	2458.47
3444.23	2487.05
3442.95	2506.53
3441.66	2573.89
3440.37	2607.47
3439.08	2617.79
3437.79	2657.9
3436.51	2710.26
3435.22	2710.11
3433.93	2758.11
3432.64	2767.84
3431.35	2803.53
3430.06	2825.79
3428.77	2870.47
3427.48	2869.37
3426.18	2936.89
3424.89	2949.26
3423.6	2938.26
3422.31	2978.74
3421.01	3013.21
3419.72	3031.63
3418.43	3049.37
3417.13	3066.58
3415.84	3104.84
3414.55	3110.84
3413.25	3150.68
3411.96	3185.37
3410.66	3188.84
3409.36	3212.1
3408.07	3250.95
3406.77	3250.26
3405.47	3325.32
3404.18	3315.89
3402.88	3358.21
3401.58	3412.11
3400.28	3401.05
3398.99	3425.74
3397.69	3480.74
3396.39	3509.63
3395.09	3538.58
3393.79	3552.74
3392.49	3574.74
3391.19	3625.37
3389.89	3644.37
3388.58	3685.37
3387.28	3717.42
3385.98	3732.58
3384.68	3749.63
3383.38	3730.37
3382.07	3762.47
3380.77	3787.21
3379.47	3813.42
3378.16	3795.26
3376.86	3812.26
3375.55	3835.32
3374.25	3850.26
3372.94	3880.95
3371.64	3890.89
3370.33	3901.32
3369.02	3944.26
3367.72	3945.16
3366.41	3986.84
3365.1	3985
3363.8	3992
3362.49	4030
3361.18	3996.42
3359.87	4002.32
3358.56	4023.32
3357.25	4009.9
3355.94	4075.11
3354.63	4073.42
3353.32	4046.68
3352.01	4086.32
3350.7	4107.16
3349.39	4137.84
3348.08	4174.63
3346.76	4189.63
3345.45	4216.9
3344.14	4230.95
3342.83	4281.79
3341.51	4342.84
3340.2	4379
3338.88	4418.68
3337.57	4451.26
3336.26	4496.74
3334.94	4498.32
3333.62	4510.53
3332.31	4544.53
3330.99	4555.32
3329.67	4542.21
3328.36	4599.63
3327.04	4630.16
3325.72	4632.42
3324.41	4646.74
3323.09	4675.26
3321.77	4715.11
3320.45	4711.26
3319.13	4687.63
3317.81	4753.47
3316.49	4714.74
3315.17	4754.53
3313.85	4745
3312.53	4739.53
3311.21	4756.11
3309.88	4769.53
3308.56	4774.42
3307.24	4813.53
3305.92	4822.05
3304.59	4784.53
3303.27	4833.47
3301.95	4828.42
3300.62	4877.63
3299.3	4877.63
3297.97	4922.58
3296.65	4972.74
3295.32	4996
3294	5097.1
3292.67	5145.05
3291.34	5246.16
3290.02	5344.58
3288.69	5438.53
3287.36	5548.84
3286.03	5703.74
3284.71	5812.89
3283.38	5964.58
3282.05	6138.95
3280.72	6331.16
3279.39	6566.05
3278.06	6792.89
3276.73	7032
3275.4	7303.32
3274.07	7547.47
3272.74	7779.53
3271.4	8047.32
3270.07	8311.47
3268.74	8622.74
3267.41	8918.95
3266.07	9233.21
3264.74	9518.11
3263.41	9857.26
3262.07	10188.3
3260.74	10441.2
3259.4	10795.9
3258.07	11066.8
3256.73	11335.1
3255.4	11596.5
3254.06	11850.6
3252.72	12049.5
3251.39	12312.1
3250.05	12496.3
3248.71	12734.7
3247.37	12950.1
3246.03	13142.6
3244.7	13301.4
3243.36	13488.4
3242.02	13686.5
3240.68	13819
3239.34	13889
3238	14021.6
3236.66	14118.9
3235.31	14263.8
3233.97	14346.3
3232.63	14411.2
3231.29	14508.3
3

Note: README.md
# castorplot-desktop
Simples aplicativo executavel para analize e manipulação de dados, dos equipamentos utilizados pelos alunos da Ilum.

File: rGO.txt
3480.13	126.474
3471.18	194.105
3462.22	250.421
3453.23	283.105
3444.23	342.737
3435.22	334.789
3426.18	384.263
3417.13	418.053
3408.07	398.263
3398.99	445.526
3389.89	468.895
3380.77	501.211
3371.64	525.579
3362.49	555.895
3353.32	551.053
3344.14	588.053
3334.94	605.579
3325.72	628.421
3316.49	681.474
3307.24	693.79
3297.97	689.421
3288.69	754.263
3279.39	843.789
3270.07	1054.47
3260.74	1330.68
3251.39	1617.37
3242.02	1836.32
3232.63	1918.05
3223.23	2000.16
3213.81	2045.74
3204.37	2083
3194.92	2149.89
3185.45	2283.21
3175.96	2374.16
3166.45	2525.11
3156.93	2614.26
3147.39	2785.21
3137.83	2890.68
3128.26	3017.89
3118.67	3075.42
3109.06	3032.58
3099.43	3030.95
3089.79	3098
3080.12	3133.79
3070.45	3207.32
3060.75	3344.1
3051.04	3379.21
3041.3	3388.42
3031.56	3479.32
3021.79	3490.79
3012.01	3522.68
3002.2	3610.21
2992.38	3707.84
2982.55	3834.79
2972.69	3979.95
2962.82	4019.26
2952.93	4093.79
2943.02	4079.26
2933.1	4152.26
2923.15	4190.9
2913.19	4177.21
2903.21	4189.89
2893.22	4249.95
2883.2	4290.58
2873.17	4342.21
2863.12	4402.42
2853.05	4425.16
2842.96	4403.16
2832.86	4349.68
2822.73	4312.84
2812.59	4294.79
2802.43	4290.47
2792.25	4312.95
2782.06	4343.84
2771.85	4399.58
2761.61	4383.63
2751.36	4363.21
2741.09	4369
2730.81	4404.79
2720.5	4422.84
2710.18	4406
2699.84	4350.74
2689.48	4344.47
2679.1	4322.53
2668.7	4322.84
2658.28	4300.84
2647.85	4328.05
2637.4	4285.42
2626.92	4250.95
2616.43	4248.37
2605.93	4193.84
2595.4	4180.84
2584.85	4235.47
2574.29	4176.32
2563.7	4123.84
2553.1	4097.1
2542.48	4013.58
2531.84	3932.42
2521.18	3871.05
2510.5	3791.11
2499.81	3798.42
2489.09	3764.1
2478.36	3661.11
2467.6	3528.05
2456.83	3501
2446.04	3440.53
2435.23	3439.68
2424.4	3387.89
2413.55	3401.79
2402.68	3357.53
2391.79	3241.11
2380.89	3203.42
2369.96	3226.53
2359.02	3212.16
2348.05	3171.89
2337.07	3100.79
2326.06	3113.95
2315.04	3000.63
2304	2999.63
2292.94	2983.42
2281.86	2944.63
2270.76	2882.53
2259.64	2870.58
2248.5	2824.16
2237.34	2758.63
2226.16	2694
2214.96	2671.79
2203.74	2650.47
2192.51	2631.32
2181.25	2654.11
2169.97	2614.32
2158.67	2560.26
2147.36	2560.95
2136.02	2462.05
2124.66	2463.74
2113.29	2440.32
2101.89	2447.68
2090.47	2426
2079.04	2387.26
2067.58	2438.37
2056.1	2412.58
2044.61	2359.58
2033.09	2338.68
2021.55	2298.95
2010	2257.05
1998.42	2264.9
1986.82	2261.11
1975.2	2235.79
1963.56	2242.11
1951.91	2211.63
1940.23	2195.79
1928.53	2183.95
1916.81	2127.21
1905.07	2068.68
1893.31	2088.84
1881.52	2091.21
1869.72	2087.84
1857.9	2041.26
1846.06	2050.58
1834.19	2070.21
1822.31	2062.95
1810.4	2015.63
1798.47	2013.74
1786.53	1990.37
1774.56	2026.95
1762.57	2067.11
1750.56	2067.95
1738.53	2107
1726.48	2086.47
1714.41	2057.63
1702.31	2052.68
1690.2	2056.05
1678.06	2106.84
1665.91	2156.95
1653.73	2266.95
1641.53	2583.16
1629.31	3087.79
1617.07	3920.42
1604.81	4481.42
1592.52	4624.21
1580.22	4537.69
1567.89	4088.37
1555.54	3718.42
1543.17	3368.68
1530.78	3255.84
1518.37	3188.63
1505.93	3148.89
1493.48	3097.84
1481	3125.63
1468.5	3152.63
1455.98	3130.21
1443.44	3131.21
1430.87	3207.16
1418.28	3244.21
1405.68	3272.58
1393.05	3474
1380.4	3737.63
1367.72	4167.05
1355.03	4746.84
1342.31	5569
1329.57	6404.42
1316.81	7095.37
1304.02	7194.89
1291.22	6563.79
1278.39	5723.63
1265.54	4927.84
1252.66	4254.21
1239.77	3814.21
1226.85	3442.58
1213.91	3245.84
1200.95	3033.32
1187.97	2941.47
1174.96	2895
1161.93	2806.89
1148.88	2630.53
1135.8	2597.79
1122.7	2484.95
1109.58	2364.53
1096.44	2341.58
1083.28	2303.68
1070.09	2359.53
1056.88	2365.32
1043.64	2386.47
1030.39	2371
1017.11	2277.58
1003.8	2200.53
990.478	2217.79
977.13	2233.05
963.758	2233.1
950.364	2190.74
936.946	2182.21
923.505	2215.26
910.04	2253.11
896.553	2237.63
883.041	2186
869.508	2182.58
855.95	2145.05
842.369	2183.53
828.765	2209.68
815.137	2203.32
801.486	2176.47
787.81	2195.74
774.111	2187.79
760.389	2223.53
746.644	2220.79
732.874	2258.11
719.081	2252.95
705.263	2274
691.422	2273.21
677.557	2262.11
663.668	2305.84
649.755	2370.37
635.818	2418.68
621.857	2437.26
607.873	2411.63
593.863	2406.84
579.83	2388.11
565.773	2424.42
551.691	2479.95
537.585	2511.05
523.455	3018.68
509.3	2591.95
495.12	2530.68
480.917	2552.63
466.689	2596.37
452.436	2587.47
438.159	2604.37
423.857	2623.53
409.531	2621.21
395.18	2646.1
380.804	2693.84
366.403	2638.74
351.978	2636.1
337.527	2668.53
323.052	2679.53
308.551	2706.74
294.026	2721.26
279.476	2649.89
264.9	2688.84
250.3	2741.21
235.674	2771.32
221.023	2782.95
206.347	2795.32
191.645	2819.26
176.919	2921.32
162.166	3132.42
147.389	3384.68
132.585	3622.21
117.757	4033.68
102.902	4504.9
88.0227	4222.42
73.1163	795.368
58.1855	129.158
51.7782	98.1579