Folder: castorplot-desktop/testes_pessoal/UVvis

Note: testes_pessoal/UVvis/GO.txt
Wavelength (nm)	Absorbance
200,0	3,704
201,0	3,753
202,0	3,800
203,0	3,809
204,0	3,853
205,0	3,897
206,0	3,913
207,0	3,947
208,0	3,982
209,0	4,029
210,0	4,050
211,0	4,075
212,0	4,108
213,0	4,141
214,0	4,177
215,0	4,224
216,0	4,255
217,0	4,301
218,0	4,345
219,0	4,369
220,0	4,394
221,0	4,440
222,0	4,470
223,0	4,462
224,0	4,525
225,0	4,515
226,0	4,550
227,0	4,569
228,0	4,614
229,0	4,571
230,0	4,591
231,0	4,610
232,0	4,579
233,0	4,598
234,0	4,603
235,0	4,606
236,0	4,582
237,0	4,587
238,0	4,552
239,0	4,521
240,0	4,514
241,0	4,441
242,0	4,403
243,0	4,383
244,0	4,342
245,0	4,256
246,0	4,209
247,0	4,175
248,0	4,122
249,0	4,051
250,0	3,990
251,0	3,929
252,0	3,854
253,0	3,796
254,0	3,727
255,0	3,665
256,0	3,592
257,0	3,523
258,0	3,445
259,0	3,371
260,0	3,294
261,0	3,222
262,0	3,143
263,0	3,065
264,0	2,988
265,0	2,908
266,0	2,835
267,0	2,761
268,0	2,686
269,0	2,616
270,0	2,545
271,0	2,480
272,0	2,419
273,0	2,362
274,0	2,309
275,0	2,263
276,0	2,217
277,0	2,179
278,0	2,144
279,0	2,113
280,0	2,085
281,0	2,062
282,0	2,041
283,0	2,022
284,0	2,007
285,0	1,992
286,0	1,980
287,0	1,969
288,0	1,959
289,0	1,952
290,0	1,944
291,0	1,936
292,0	1,929
293,0	1,922
294,0	1,914
295,0	1,906
296,0	1,899
297,0	1,890
298,0	1,882
299,0	1,872
300,0	1,863
301,0	1,854
302,0	1,843
303,0	1,831
304,0	1,818
305,0	1,804
306,0	1,789
307,0	1,771
308,0	1,753
309,0	1,733
310,0	1,713
311,0	1,693
312,0	1,672
313,0	1,651
314,0	1,630
315,0	1,609
316,0	1,589
317,0	1,569
318,0	1,549
319,0	1,529
320,0	1,509
321,0	1,490
322,0	1,470
323,0	1,449
324,0	1,450
325,0	1,429
326,0	1,407
327,0	1,385
328,0	1,363
329,0	1,343
330,0	1,320
331,0	1,298
332,0	1,276
333,0	1,254
334,0	1,233
335,0	1,212
336,0	1,191
337,0	1,171
338,0	1,153
339,0	1,135
340,0	1,118
341,0	1,103
342,0	1,087
343,0	1,072
344,0	1,058
345,0	1,043
346,0	1,029
347,0	1,015
348,0	1,002
349,0	0,988
350,0	0,976
351,0	0,963
352,0	0,951
353,0	0,940
354,0	0,928
355,0	0,917
356,0	0,907
357,0	0,896
358,0	0,887
359,0	0,878
360,0	0,869
361,0	0,860
362,0	0,851
363,0	0,841
364,0	0,831
365,0	0,822
366,0	0,811
367,0	0,801
368,0	0,791
369,0	0,780
370,0	0,769
371,0	0,759
372,0	0,748
373,0	0,737
374,0	0,727
375,0	0,717
376,0	0,708
377,0	0,698
378,0	0,689
379,0	0,680
380,0	0,671
381,0	0,663
382,0	0,654
383,0	0,646
384,0	0,638
385,0	0,630
386,0	0,621
387,0	0,613
388,0	0,605
389,0	0,597
390,0	0,590
391,0	0,582
392,0	0,575
393,0	0,567
394,0	0,559
395,0	0,551
396,0	0,544
397,0	0,537
398,0	0,530
399,0	0,523
400,0	0,516
401,0	0,509
402,0	0,502
403,0	0,496
404,0	0,489
405,0	0,483
406,0	0,477
407,0	0,471
408,0	0,465
409,0	0,459
410,0	0,453
411,0	0,447
412,0	0,442
413,0	0,436
414,0	0,431
415,0	0,426
416,0	0,420
417,0	0,415
418,0	0,410
419,0	0,405
420,0	0,400
421,0	0,395
422,0	0,390
423,0	0,386
424,0	0,381
425,0	0,377
426,0	0,372
427,0	0,367
428,0	0,363
429,0	0,358
430,0	0,354
431,0	0,350
432,0	0,346
433,0	0,341
434,0	0,337
435,0	0,333
436,0	0,329
437,0	0,325
438,0	0,322
439,0	0,318
440,0	0,314
441,0	0,311
442,0	0,308
443,0	0,304
444,0	0,301
445,0	0,297
446,0	0,294
447,0	0,2

Note: testes_pessoal/UVvis/PEGGO   .txt
Wavelength (nm)	Absorbance
200,0	3,490
201,0	3,502
202,0	3,507
203,0	3,522
204,0	3,537
205,0	3,564
206,0	3,579
207,0	3,592
208,0	3,616
209,0	3,638
210,0	3,653
211,0	3,690
212,0	3,715
213,0	3,740
214,0	3,777
215,0	3,799
216,0	3,824
217,0	3,861
218,0	3,890
219,0	3,925
220,0	3,970
221,0	3,988
222,0	4,018
223,0	4,047
224,0	4,083
225,0	4,121
226,0	4,124
227,0	4,162
228,0	4,174
229,0	4,181
230,0	4,196
231,0	4,196
232,0	4,214
233,0	4,210
234,0	4,193
235,0	4,199
236,0	4,238
237,0	4,212
238,0	4,214
239,0	4,177
240,0	4,159
241,0	4,134
242,0	4,112
243,0	4,075
244,0	4,065
245,0	4,036
246,0	3,995
247,0	3,958
248,0	3,927
249,0	3,888
250,0	3,850
251,0	3,815
252,0	3,778
253,0	3,725
254,0	3,690
255,0	3,642
256,0	3,597
257,0	3,550
258,0	3,498
259,0	3,451
260,0	3,397
261,0	3,345
262,0	3,289
263,0	3,234
264,0	3,178
265,0	3,119
266,0	3,067
267,0	3,007
268,0	2,950
269,0	2,893
270,0	2,838
271,0	2,782
272,0	2,728
273,0	2,677
274,0	2,630
275,0	2,587
276,0	2,543
277,0	2,504
278,0	2,468
279,0	2,434
280,0	2,403
281,0	2,374
282,0	2,350
283,0	2,328
284,0	2,307
285,0	2,289
286,0	2,271
287,0	2,255
288,0	2,243
289,0	2,227
290,0	2,218
291,0	2,207
292,0	2,197
293,0	2,188
294,0	2,177
295,0	2,169
296,0	2,160
297,0	2,151
298,0	2,142
299,0	2,134
300,0	2,126
301,0	2,118
302,0	2,108
303,0	2,099
304,0	2,088
305,0	2,077
306,0	2,065
307,0	2,053
308,0	2,037
309,0	2,023
310,0	2,006
311,0	1,990
312,0	1,974
313,0	1,955
314,0	1,937
315,0	1,920
316,0	1,902
317,0	1,885
318,0	1,868
319,0	1,850
320,0	1,832
321,0	1,815
322,0	1,798
323,0	1,780
324,0	1,763
325,0	1,745
326,0	1,727
327,0	1,707
328,0	1,689
329,0	1,671
330,0	1,651
331,0	1,632
332,0	1,613
333,0	1,592
334,0	1,572
335,0	1,552
336,0	1,531
337,0	1,512
338,0	1,494
339,0	1,476
340,0	1,459
341,0	1,443
342,0	1,426
343,0	1,410
344,0	1,395
345,0	1,381
346,0	1,366
347,0	1,353
348,0	1,339
349,0	1,325
350,0	1,312
351,0	1,299
352,0	1,286
353,0	1,274
354,0	1,262
355,0	1,250
356,0	1,238
357,0	1,227
358,0	1,216
359,0	1,206
360,0	1,196
361,0	1,186
362,0	1,176
363,0	1,166
364,0	1,156
365,0	1,145
366,0	1,135
367,0	1,125
368,0	1,114
369,0	1,103
370,0	1,092
371,0	1,081
372,0	1,070
373,0	1,058
374,0	1,048
375,0	1,037
376,0	1,027
377,0	1,016
378,0	1,006
379,0	0,996
380,0	0,986
381,0	0,976
382,0	0,967
383,0	0,957
384,0	0,948
385,0	0,939
386,0	0,930
387,0	0,920
388,0	0,912
389,0	0,903
390,0	0,894
391,0	0,886
392,0	0,877
393,0	0,868
394,0	0,860
395,0	0,851
396,0	0,842
397,0	0,834
398,0	0,826
399,0	0,818
400,0	0,810
401,0	0,802
402,0	0,794
403,0	0,786
404,0	0,778
405,0	0,771
406,0	0,764
407,0	0,756
408,0	0,749
409,0	0,741
410,0	0,734
411,0	0,727
412,0	0,720
413,0	0,714
414,0	0,707
415,0	0,700
416,0	0,694
417,0	0,688
418,0	0,681
419,0	0,675
420,0	0,669
421,0	0,663
422,0	0,657
423,0	0,651
424,0	0,646
425,0	0,640
426,0	0,634
427,0	0,628
428,0	0,623
429,0	0,617
430,0	0,611
431,0	0,606
432,0	0,600
433,0	0,595
434,0	0,589
435,0	0,584
436,0	0,579
437,0	0,574
438,0	0,569
439,0	0,565
440,0	0,560
441,0	0,555
442,0	0,551
443,0	0,547
444,0	0,542
445,0	0,538
446,0	0,533
447,0	0,5

Note: README.md
# castorplot-desktop
Simples aplicativo executavel para analize e manipulação de dados, dos equipamentos utilizados pelos alunos da Ilum.

File: rGO.txt
Wavelength (nm)	Absorbance
200,0	1,338
203,0	1,275
206,0	1,229
209,0	1,196
212,0	1,177
215,0	1,167
218,0	1,163
221,0	1,162
224,0	1,161
227,0	1,157
230,0	1,150
233,0	1,142
236,0	1,139
239,0	1,144
242,0	1,155
245,0	1,171
248,0	1,191
251,0	1,212
254,0	1,233
257,0	1,252
260,0	1,267
263,0	1,278
266,0	1,282
269,0	1,278
272,0	1,267
275,0	1,248
278,0	1,223
281,0	1,191
284,0	1,157
287,0	1,117
290,0	1,075
293,0	1,033
296,0	0,989
299,0	0,948
302,0	0,909
305,0	0,872
308,0	0,836
311,0	0,804
314,0	0,775
317,0	0,749
320,0	0,726
323,0	0,707
326,0	0,690
329,0	0,676
332,0	0,662
335,0	0,650
338,0	0,638
341,0	0,626
344,0	0,615
347,0	0,605
350,0	0,594
353,0	0,584
356,0	0,574
359,0	0,564
362,0	0,554
365,0	0,543
368,0	0,533
371,0	0,522
374,0	0,511
377,0	0,500
380,0	0,489
383,0	0,477
386,0	0,466
389,0	0,454
392,0	0,443
395,0	0,433
398,0	0,422
401,0	0,412
404,0	0,402
407,0	0,392
410,0	0,382
413,0	0,373
416,0	0,364
419,0	0,357
422,0	0,349
425,0	0,342
428,0	0,335
431,0	0,328
434,0	0,322
437,0	0,316
440,0	0,310
443,0	0,304
446,0	0,299
449,0	0,294
452,0	0,289
455,0	0,284
458,0	0,279
461,0	0,275
464,0	0,271
467,0	0,266
470,0	0,262
473,0	0,259
476,0	0,255
479,0	0,251
482,0	0,248
485,0	0,244
488,0	0,241
491,0	0,238
494,0	0,235
497,0	0,232
500,0	0,230
503,0	0,227
506,0	0,224
509,0	0,222
512,0	0,220
515,0	0,217
518,0	0,215
521,0	0,213
524,0	0,211
527,0	0,209
530,0	0,207
533,0	0,205
536,0	0,203
539,0	0,201
542,0	0,199
545,0	0,198
548,0	0,196
551,0	0,194
554,0	0,192
557,0	0,191
560,0	0,189
563,0	0,188
566,0	0,186
569,0	0,185
572,0	0,183
575,0	0,182
578,0	0,180
581,0	0,179
584,0	0,177
587,0	0,176
590,0	0,175
593,0	0,174
596,0	0,172
599,0	0,171
602,0	0,170
605,0	0,169
608,0	0,168
611,0	0,167
614,0	0,166
617,0	0,165
620,0	0,163
623,0	0,162
626,0	0,161
629,0	0,160
632,0	0,159
635,0	0,159
638,0	0,158
641,0	0,157
644,0	0,156
647,0	0,155
650,0	0,154
653,0	0,153
656,0	0,152
659,0	0,152
662,0	0,151
665,0	0,150
668,0	0,149
671,0	0,149
674,0	0,148
677,0	0,147
680,0	0,147
683,0	0,146
686,0	0,145
689,0	0,145
692,0	0,144
695,0	0,143
698,0	0,143
701,0	0,142
704,0	0,142
707,0	0,141
710,0	0,141
713,0	0,140
716,0	0,140
719,0	0,139
722,0	0,139
725,0	0,138
728,0	0,138
731,0	0,137
734,0	0,137
737,0	0,136
740,0	0,136
743,0	0,135
746,0	0,135
749,0	0,135
752,0	0,134
755,0	0,134
758,0	0,134
761,0	0,133
764,0	0,132
767,0	0,132
770,0	0,132
773,0	0,132
776,0	0,131
779,0	0,131
782,0	0,130
785,0	0,130
788,0	0,130
791,0	0,129
794,0	0,129
797,0	0,129
800,0	0,128